Folder: Thesis/Images/deconvolutions

Note: README
Quentin Stoyel's Masters Thesis

The complete thesis can be found and read in the "thesis.pdf" file.
This can be created by running "make" 

Sample ways to provide feedback
1 -As comments in the pdf
2 -As comments (%) directly in the appropriate tex file and tag them with something so I can ctrl+F to go through them all.  "eg %QS: comment here"
3 -Whatever works best for you

You can then send me the altered files via email, or reupload them to the shared directory, with a different name: eg thesis_Quentin_edits.pdf / tex



The main latex code is located in thesis.tex file, with the individual sections and chapters in the Chapters folder
Additional files contains items such as the title page tex file
All diagrams  in the thesis are found in the images folder
The assorted references in bib files titled corresponding to the chapter they are first used in

File: deconv_0.msa
#FORMAT      : EMSA/MAS Spectral Data File
#VERSION     : 1.0
#TITLE       : LiF_before_transformation_30kV
#DATE        :
#TIME        :
#OWNER       :
#NPOINTS     : 363
#NCOLUMNS    : 1
#XUNITS      : eV
#YUNITS      :
#DATATYPE    : XY
#XPERCHAN    : 0.111111
#OFFSET      : 44.1668
#SIGNALTYPE  : EELS
#XLABEL      :
#COMMENT     : File created by HyperSpy version 1.3
#BEAMKV      : 30.0
#CONVANGLE   : 2.0
#COLLANGLE   : 5.0
#SPECTRUM,    : Spectral Data Starts Here
44.1668, -0.00219258
44.389, 0.00685652
44.6112, -0.000455786
44.8334, -0.00473324
45.0557, -0.00395966
45.2779, -0.00470975
45.5001, -0.00617289
45.7223, 0.0100704
45.9446, -0.00824028
46.1668, -0.00313412
46.389, -0.00090073
46.6112, 0.00430575
46.8334, 0.000966384
47.0557, -0.00371501
47.2779, -0.00728019
47.5001, -0.00759139
47.7223, -0.0106287
47.9446, -0.00813555
48.1668, -0.00990686
48.389, 0.000630024
48.6112, -0.00649229
48.8334, 0.00682927
49.0557, 0.0116648
49.2779, 0.00525379
49.5001, 0.00528251
49.7223, 0.00592322
49.9446, 0.0119837
50.1668, 0.0040097
50.389, -0.00388299
50.6112, 0.000696986
50.8334, -7.18672e-05
51.0557, 0.00319576
51.2779, 0.00964636
51.5001, 0.000939554
51.7223, -0.000615023
51.9446, -0.00922259
52.1668, -0.00530493
52.389, -0.00460845
52.6112, -0.00652194
52.8334, -0.0129214
53.0557, -0.00956937
53.2779, -0.0125938
53.5001, -0.0106564
53.7223, -0.00972281
53.9446, -0.00765589
54.1668, -0.0075983
54.389, -0.00788608
54.6112, -0.00322365
54.8334, -0.0108988
55.0557, -0.000667422
55.2779, -0.00561046
55.5001, 0.000686108
55.7223, 0.00185
55.9446, 0.000964143
56.1668, 0.00346137
56.389, 0.0107003
56.6112, 0.00888744
56.8334, 0.00998636
57.0557, 0.016317
57.2779, 0.016222
57.5001, 0.0208106
57.7223, 0.0243762
57.9446, 0.0236694
58.1668, 0.0252213
58.389, 0.0251722
58.6112, 0.034463
58.8334, 0.032281
59.0557, 0.0382345
59.2779, 0.0390791
59.5001, 0.0440011
59.7223, 0.0509412
59.9446, 0.0560238
60.1668, 0.0722197
60.389, 0.0794025
60.6112, 0.100736
60.8334, 0.126897
61.0557, 0.154651
61.2779, 0.18055
61.5001, 0.209691
61.7223, 0.20147
61.9446, 0.185994
62.1668, 0.160363
62.389, 0.149999
62.6112, 0.137554
62.8334, 0.125209
63.0557, 0.112111
63.2779, 0.0947195
63.5001, 0.0985633
63.7223, 0.0954288
63.9446, 0.0985153
64.1668, 0.103459
64.389, 0.106339
64.6112, 0.106346
64.8334, 0.108151
65.0557, 0.109556
65.2779, 0.102763
65.5001, 0.108816
65.7223, 0.110686
65.9446, 0.107762
66.1668, 0.114404
66.389, 0.118298
66.6112, 0.114667
66.8334, 0.121732
67.0557, 0.117139
67.2779, 0.122295
67.5001, 0.119378
67.7223, 0.120948
67.9446, 0.129017
68.1668, 0.12926
68.389, 0.124039
68.6112, 0.130752
68.8334, 0.131943
69.0557, 0.1297
69.2779, 0.129153
69.5001, 0.133948
69.7223, 0.116589
69.9446, 0.122074
70.1668, 0.113431
70.389, 0.107308
70.6112, 0.0898653
70.8334, 0.0863718
71.0557, 0.0846664
71.2779, 0.0785081
71.5001, 0.0806538
71.7223, 0.0639426
71.9446, 0.0719848
72.1668, 0.0664195
72.389, 0.0640471
72.6112, 0.0571618
72.8334, 0.0557432
73.0557, 0.0624007
73.2779, 0.0552836
73.5001, 0.058364
73.7223, 0.0523546
73.9446, 0.052194
74.1668, 0.0522672
74.389, 0.0540086
74.6112, 0.0539392
74.8334, 0.0465966
75.0557, 0.0508104
75.2779, 0.0491854
75.5001, 0.0545547
75.7223, 0.0492027
75.9446, 0.0535765
76.1668, 0.0536227
76.389, 0.0546974
76.6112, 0.051521
76.8334, 0.0518757
77.0557, 0.0501922
77.2779, 0.0575638
77.5001, 0.057572
77.7223, 0.0541841
77.9446, 0.0573645
78.1668, 0.0588581
78.389, 0.0584514
78.6112, 0.0568769
78.8334, 0.0609403
79.0557, 0.0591973
79.2779, 0.0567904
79.5001, 0.0572293
79.7223, 0.0568823
79.9446, 0.0604646
80.1668, 0.0596754
80.389, 0.0553998
80.6112, 0.0616456
80.8334, 0.0575692
81.0557, 0.0614815
81.2779, 0.0581234
81.5001, 0.0600228
81.7223, 0.0542858
81.9446, 0.0555613
82.1668, 0.0583865
82.389, 0.0600148
82.6112, 0.0586917
82.8334, 0.0544171
83.0557, 0.0585134
83.2779, 0.0565913
83.5001, 0.058432
83.7223, 0.0565585
83.9446, 0.0562049
84.1668, 0.060423
84.389, 0.0578754
#ENDOFDATA   : End Of Data and File